{"entry": [{"resource": {"subject": {"display": "P. van den Heuvel", "reference": "Patient/f001", "patientId": "f001"}, "basedOn": [{"reference": "ServiceRequest/req"}], "resourceType": "DiagnosticReport", "issued": "2013-05-15T19:32:52+01:00", "status": "final", "text": {"status": "generated", "div": "<div xmlns=\"http://www.w3.org/1999/xhtml\"><p><b>Generated Narrative with Details</b></p><p><b>id</b>: f001</p><p><b>identifier</b>: nr1239044 (OFFICIAL)</p><p><b>basedOn</b>: <a>ServiceRequest/req</a></p><p><b>status</b>: final</p><p><b>category</b>: Haematology test <span>(Details : {SNOMED CT code '252275004' = 'Haematology test', given as 'Haematology test'}; {http://terminology.hl7.org/CodeSystem/v2-0074 code 'HM' = 'Hematology)</span></p><p><b>code</b>: Complete blood count (hemogram) panel - Blood by Automated count <span>(Details : {LOINC code '58410-2' = 'Complete blood count (hemogram) panel - Blood by Automated count', given as 'Complete blood count (hemogram) panel - Blood by Automated count'})</span></p><p><b>subject</b>: <a>P. van den Heuvel</a></p><p><b>issued</b>: 15/05/2013 7:32:52 PM</p><p><b>performer</b>: <a>Burgers University Medical Centre</a></p><p><b>result</b>: </p><ul><li><a>Observation/f001</a></li><li><a>Observation/f002</a></li><li><a>Observation/f003</a></li><li><a>Observation/f004</a></li><li><a>Observation/f005</a></li></ul><p><b>conclusion</b>: Core lab</p></div>"}, "category": [{"coding": [{"display": "Respiratory test", "code": "252275004", "system": "http://snomed.info/sct"}, {"code": "RC", "system": "http://terminology.hl7.org/CodeSystem/v2-0074"}]}], "result": [{"reference": "Observation/f001"}, {"reference": "Observation/f002"}, {"reference": "Observation/f003"}, {"reference": "Observation/f004"}, {"reference": "Observation/f005"}], "conclusion": "Core lab", "id": "f001", "identifier": [{"value": "nr1239044", "system": "http://www.bmc.nl/zorgportal/identifiers/reports", "use": "official"}], "performer": [{"display": "Burgers University Medical Centre", "reference": "Organization/f001"}], "code": {"coding": [{"display": "SARS coronavirus 2 RNA", "code": "94500-6", "system": "http://loinc.org"}]}}, "fullUrl": "https://example.com/base/DiagnosticReport/f001"}, {"resource": {"requester": {"display": "E.van den Broek", "reference": "Practitioner/f001"}, "extension": [{"valueCodeableConcept": {"coding": [{"display": "Forearm structure", "code": "14975008", "system": "http://snomed.info/sct"}]}, "url": "http://example.org/bodysitecode"}], "resourceType": "ServiceRequest", "status": "active", "note": [{"text": "patient almost fainted during procedure"}], "encounter": {"reference": "Encounter/f001"}, "text": {"status": "generated", "div": "<div xmlns=\"http://www.w3.org/1999/xhtml\"><p><b>Generated Narrative with Details</b></p><p><b>id</b>: req</p><p><b>identifier</b>: L2381</p><p><b>status</b>: active</p><p><b>intent</b>: original-order</p><p><b>code</b>: Complete blood count (hemogram) panel - Blood by Automated count <span>(Details : {LOINC code '58410-2' = 'Complete blood count (hemogram) panel - Blood by Automated count', given as 'Complete blood count (hemogram) panel - Blood by Automated count'})</span></p><p><b>subject</b>: <a>P. van den Heuvel</a></p><p><b>encounter</b>: <a>Encounter/f001</a></p><p><b>requester</b>: <a>E.van den Broek</a></p><p><b>note</b>: patient almost fainted during procedure</p></div>"}, "intent": "original-order", "subject": {"display": "P. van den Heuvel", "reference": "Patient/f001", "patientId": "f001"}, "id": "req", "identifier": [{"value": "L2381", "system": "http://www.bmc.nl/zorgportal/identifiers/labresults"}], "code": {"coding": [{"display": "SARS coronavirus 2 RNA", "code": "94500-6", "system": "http://loinc.org"}]}}, "fullUrl": "https://example.com/base/ServiceRequest/req"}], "resourceType": "DiagnosticReport", "type": "collection", "id": "f001"}